/*
Flick reference spectrum for downward plane irradiance just above
the ocean surface under a cloud-free sky and and with a US standard
atmosphere. See
flick/Example/accurt_calls/reference_spectrum/make_reference_spectrum.py
for further specifications of solar zenith angle, aerosols, spectral
width, etc.

Column 1: Wavelength [nm]
Column 2: Irradiance [W/m2/nm]
*/

290.16  4.858e-06
291.59  1.602e-05
293.03  4.753e-05
294.46  1.358e-04
295.89  3.393e-04
297.32  7.348e-04
298.76  1.474e-03
300.19  2.694e-03
301.62  4.574e-03
303.05  7.408e-03
304.49  1.141e-02
305.92  1.676e-02
307.35  2.347e-02
308.79  3.177e-02
310.22  4.147e-02
311.65  5.258e-02
313.08  6.455e-02
314.52  7.705e-02
315.95  9.013e-02
317.38  1.044e-01
318.81  1.191e-01
320.25  1.348e-01
321.68  1.511e-01
323.11  1.679e-01
324.54  1.852e-01
325.98  2.022e-01
327.41  2.170e-01
328.84  2.296e-01
330.27  2.396e-01
331.71  2.474e-01
333.14  2.534e-01
334.57  2.578e-01
336.00  2.602e-01
337.44  2.630e-01
338.87  2.662e-01
340.30  2.693e-01
341.74  2.726e-01
343.17  2.758e-01
344.60  2.791e-01
346.03  2.843e-01
347.47  2.895e-01
348.90  2.936e-01
350.33  2.975e-01
351.76  3.010e-01
353.20  3.042e-01
354.63  3.071e-01
356.06  3.081e-01
357.49  3.103e-01
358.93  3.157e-01
360.36  3.234e-01
361.79  3.324e-01
363.22  3.427e-01
364.66  3.525e-01
366.09  3.616e-01
367.52  3.682e-01
368.95  3.729e-01
370.39  3.757e-01
371.82  3.771e-01
373.25  3.764e-01
374.69  3.746e-01
376.12  3.737e-01
377.55  3.730e-01
378.98  3.695e-01
380.42  3.649e-01
381.85  3.610e-01
383.28  3.598e-01
384.71  3.599e-01
386.15  3.610e-01
387.58  3.629e-01
389.01  3.673e-01
390.44  3.772e-01
391.88  3.885e-01
393.31  4.031e-01
394.74  4.248e-01
396.17  4.498e-01
397.61  4.800e-01
399.04  5.130e-01
400.47  5.430e-01
401.91  5.707e-01
403.34  5.938e-01
404.77  6.105e-01
406.20  6.237e-01
407.64  6.331e-01
409.07  6.394e-01
410.50  6.444e-01
411.93  6.502e-01
413.37  6.551e-01
414.80  6.591e-01
416.23  6.618e-01
417.66  6.623e-01
419.10  6.616e-01
420.53  6.593e-01
421.96  6.533e-01
423.39  6.470e-01
424.83  6.412e-01
426.26  6.359e-01
427.69  6.329e-01
429.12  6.315e-01
430.56  6.336e-01
431.99  6.424e-01
433.42  6.543e-01
434.86  6.684e-01
436.29  6.844e-01
437.72  6.996e-01
439.15  7.159e-01
440.59  7.328e-01
442.02  7.484e-01
443.45  7.626e-01
444.88  7.748e-01
446.32  7.856e-01
447.75  7.972e-01
449.18  8.071e-01
450.61  8.145e-01
452.05  8.193e-01
453.48  8.234e-01
454.91  8.282e-01
456.34  8.326e-01
457.78  8.353e-01
459.21  8.370e-01
460.64  8.386e-01
462.08  8.399e-01
463.51  8.403e-01
464.94  8.396e-01
466.37  8.388e-01
467.81  8.386e-01
469.24  8.394e-01
470.67  8.407e-01
472.10  8.435e-01
473.54  8.469e-01
474.97  8.505e-01
476.40  8.525e-01
477.83  8.520e-01
479.27  8.492e-01
480.70  8.451e-01
482.13  8.395e-01
483.56  8.320e-01
485.00  8.241e-01
486.43  8.183e-01
487.86  8.166e-01
489.29  8.171e-01
490.73  8.181e-01
492.16  8.187e-01
493.59  8.204e-01
495.03  8.220e-01
496.46  8.220e-01
497.89  8.198e-01
499.32  8.163e-01
500.76  8.130e-01
502.19  8.111e-01
503.62  8.098e-01
505.05  8.087e-01
506.49  8.077e-01
507.92  8.053e-01
509.35  8.016e-01
510.78  7.970e-01
512.22  7.913e-01
513.65  7.846e-01
515.08  7.784e-01
516.51  7.732e-01
517.95  7.701e-01
519.38  7.701e-01
520.81  7.723e-01
522.25  7.759e-01
523.68  7.803e-01
525.11  7.843e-01
526.54  7.879e-01
527.98  7.921e-01
529.41  7.951e-01
530.84  7.964e-01
532.27  7.957e-01
533.71  7.945e-01
535.14  7.936e-01
536.57  7.925e-01
538.00  7.902e-01
539.44  7.873e-01
540.87  7.855e-01
542.30  7.855e-01
543.73  7.858e-01
545.17  7.862e-01
546.60  7.868e-01
548.03  7.873e-01
549.46  7.876e-01
550.90  7.869e-01
552.33  7.852e-01
553.76  7.830e-01
555.20  7.803e-01
556.63  7.769e-01
558.06  7.734e-01
559.49  7.704e-01
560.93  7.679e-01
562.36  7.655e-01
563.79  7.633e-01
565.22  7.617e-01
566.66  7.607e-01
568.09  7.602e-01
569.52  7.597e-01
570.95  7.592e-01
572.39  7.598e-01
573.82  7.605e-01
575.25  7.612e-01
576.68  7.617e-01
578.12  7.618e-01
579.55  7.610e-01
580.98  7.583e-01
582.41  7.536e-01
583.85  7.474e-01
585.28  7.397e-01
586.71  7.311e-01
588.15  7.223e-01
589.58  7.148e-01
591.01  7.100e-01
592.44  7.073e-01
593.88  7.064e-01
595.31  7.078e-01
596.74  7.109e-01
598.17  7.147e-01
599.61  7.185e-01
601.04  7.214e-01
602.47  7.237e-01
603.90  7.258e-01
605.34  7.265e-01
606.77  7.262e-01
608.20  7.251e-01
609.63  7.236e-01
611.07  7.220e-01
612.50  7.204e-01
613.93  7.189e-01
615.37  7.177e-01
616.80  7.168e-01
618.23  7.163e-01
619.66  7.151e-01
621.10  7.132e-01
622.53  7.105e-01
623.96  7.074e-01
625.39  7.043e-01
626.83  7.016e-01
628.26  6.995e-01
629.69  6.989e-01
631.12  6.995e-01
632.56  7.012e-01
633.99  7.032e-01
635.42  7.051e-01
636.85  7.066e-01
638.29  7.069e-01
639.72  7.054e-01
641.15  7.025e-01
642.58  6.987e-01
644.02  6.944e-01
645.45  6.896e-01
646.88  6.838e-01
648.32  6.773e-01
649.75  6.720e-01
651.18  6.680e-01
652.61  6.650e-01
654.05  6.627e-01
655.48  6.614e-01
656.91  6.626e-01
658.34  6.669e-01
659.78  6.717e-01
661.21  6.762e-01
662.64  6.801e-01
664.07  6.837e-01
665.51  6.869e-01
666.94  6.889e-01
668.37  6.889e-01
669.80  6.883e-01
671.24  6.873e-01
672.67  6.863e-01
674.10  6.851e-01
675.54  6.830e-01
676.97  6.785e-01
678.40  6.701e-01
679.83  6.586e-01
681.27  6.441e-01
682.70  6.272e-01
684.13  6.086e-01
685.56  5.896e-01
687.00  5.738e-01
688.43  5.648e-01
689.86  5.614e-01
691.29  5.630e-01
692.73  5.679e-01
694.16  5.751e-01
695.59  5.848e-01
697.02  5.942e-01
698.46  6.008e-01
699.89  6.053e-01
701.32  6.084e-01
702.75  6.117e-01
704.19  6.149e-01
705.62  6.170e-01
707.05  6.176e-01
708.49  6.152e-01
709.92  6.090e-01
711.35  5.975e-01
712.78  5.828e-01
714.22  5.654e-01
715.65  5.450e-01
717.08  5.234e-01
718.51  5.042e-01
719.95  4.899e-01
721.38  4.817e-01
722.81  4.757e-01
724.24  4.727e-01
725.68  4.750e-01
727.11  4.816e-01
728.54  4.911e-01
729.97  5.014e-01
731.41  5.127e-01
732.84  5.258e-01
734.27  5.393e-01
735.71  5.513e-01
737.14  5.619e-01
738.57  5.708e-01
740.00  5.783e-01
741.44  5.838e-01
742.87  5.879e-01
744.30  5.907e-01
745.73  5.928e-01
747.17  5.940e-01
748.60  5.939e-01
750.03  5.915e-01
751.46  5.806e-01
752.90  5.605e-01
754.33  5.313e-01
755.76  4.944e-01
757.19  4.518e-01
758.63  4.064e-01
760.06  3.632e-01
761.49  3.349e-01
762.92  3.239e-01
764.36  3.309e-01
765.79  3.527e-01
767.22  3.858e-01
768.66  4.252e-01
770.09  4.656e-01
771.52  4.996e-01
772.95  5.253e-01
774.39  5.421e-01
775.82  5.518e-01
777.25  5.558e-01
778.68  5.564e-01
780.12  5.553e-01
781.55  5.531e-01
782.98  5.503e-01
784.41  5.469e-01
785.85  5.432e-01
787.28  5.393e-01
788.71  5.355e-01
790.14  5.320e-01
791.58  5.290e-01
793.01  5.264e-01
794.44  5.243e-01
795.88  5.225e-01
797.31  5.209e-01
798.74  5.195e-01
800.17  5.180e-01
801.61  5.163e-01
803.04  5.140e-01
804.47  5.101e-01
805.90  5.041e-01
807.34  4.946e-01
808.77  4.820e-01
810.20  4.669e-01
811.63  4.504e-01
813.07  4.331e-01
814.50  4.162e-01
815.93  4.021e-01
817.36  3.933e-01
818.80  3.889e-01
820.23  3.880e-01
821.66  3.889e-01
823.09  3.919e-01
824.53  3.972e-01
825.96  4.029e-01
827.39  4.076e-01
828.83  4.123e-01
830.26  4.178e-01
831.69  4.249e-01
833.12  4.327e-01
834.56  4.407e-01
835.99  4.487e-01
837.42  4.567e-01
838.85  4.639e-01
840.29  4.695e-01
841.72  4.732e-01
843.15  4.753e-01
844.58  4.755e-01
846.02  4.735e-01
847.45  4.702e-01
848.88  4.666e-01
850.31  4.633e-01
851.75  4.606e-01
853.18  4.584e-01
854.61  4.576e-01
856.04  4.592e-01
857.48  4.609e-01
858.91  4.621e-01
860.34  4.629e-01
861.78  4.632e-01
863.21  4.632e-01
864.64  4.623e-01
866.07  4.601e-01
867.51  4.590e-01
868.94  4.587e-01
870.37  4.586e-01
871.80  4.583e-01
873.24  4.580e-01
874.67  4.575e-01
876.10  4.572e-01
877.53  4.560e-01
878.97  4.542e-01
880.40  4.521e-01
881.83  4.503e-01
883.26  4.484e-01
884.70  4.456e-01
886.13  4.412e-01
887.56  4.345e-01
889.00  4.253e-01
890.43  4.121e-01
891.86  3.956e-01
893.29  3.763e-01
894.73  3.568e-01
896.16  3.389e-01
897.59  3.237e-01
899.02  3.116e-01
900.46  3.037e-01
901.89  2.994e-01
903.32  2.982e-01
904.75  2.969e-01
906.19  2.938e-01
907.62  2.892e-01
909.05  2.843e-01
910.48  2.801e-01
911.92  2.765e-01
913.35  2.742e-01
914.78  2.742e-01
916.21  2.772e-01
917.65  2.825e-01
919.08  2.879e-01
920.51  2.903e-01
921.95  2.881e-01
923.38  2.795e-01
924.81  2.649e-01
926.24  2.438e-01
927.68  2.167e-01
929.11  1.859e-01
930.54  1.560e-01
931.97  1.298e-01
933.41  1.099e-01
934.84  9.572e-02
936.27  8.796e-02
937.70  8.590e-02
939.14  8.817e-02
940.57  9.142e-02
942.00  9.405e-02
943.43  9.580e-02
944.87  9.702e-02
946.30  9.802e-02
947.73  9.893e-02
949.17  9.981e-02
950.60  1.018e-01
952.03  1.050e-01
953.46  1.090e-01
954.90  1.138e-01
956.33  1.196e-01
957.76  1.263e-01
959.19  1.352e-01
960.63  1.468e-01
962.06  1.605e-01
963.49  1.762e-01
964.92  1.925e-01
966.36  2.089e-01
967.79  2.245e-01
969.22  2.378e-01
970.65  2.478e-01
972.09  2.547e-01
973.52  2.594e-01
974.95  2.635e-01
976.38  2.679e-01
977.82  2.731e-01
979.25  2.798e-01
980.68  2.882e-01
982.12  2.981e-01
983.55  3.083e-01
984.98  3.181e-01
986.41  3.267e-01
987.85  3.340e-01
989.28  3.397e-01
990.71  3.439e-01
992.14  3.468e-01
993.58  3.487e-01
995.01  3.498e-01
996.44  3.497e-01
997.87  3.491e-01
999.31  3.481e-01
1000.74  3.468e-01
1002.17  3.454e-01
1003.60  3.440e-01
1005.04  3.427e-01
1006.47  3.421e-01
1007.90  3.417e-01
1009.34  3.414e-01
1010.77  3.411e-01
1012.20  3.409e-01
1013.63  3.406e-01
1015.07  3.401e-01
1016.50  3.393e-01
1017.93  3.385e-01
1019.36  3.376e-01
1020.80  3.368e-01
1022.23  3.361e-01
1023.66  3.354e-01
1025.09  3.348e-01
1026.53  3.341e-01
1027.96  3.334e-01
1029.39  3.326e-01
1030.82  3.317e-01
1032.26  3.308e-01
1033.69  3.299e-01
1035.12  3.291e-01
1036.55  3.282e-01
1037.99  3.274e-01
1039.42  3.266e-01
